{
  "entry": [
    {
      "resource": {
        "meta": {
          "profile": [
            "https://fhir.redoxengine.com/StructureDefinition/redox-pa-claim"
          ]
        },
        "accident": {
          "type": {
            "coding": [
              {
                "code": "EM",
                "system": "https://valueset.x12.org/x217/005010/request/2000E/UM/1/05/01/1362"
              }
            ]
          },
          "date": "2023-05-10"
        },
        "careTeam": [
          {
            "sequence": 1,
            "extension": [
              {
                "url": "http://hl7.org/fhir/us/davinci-pas/StructureDefinition/extension-careTeamClaimScope",
                "valueBoolean": true
              }
            ],
            "provider": {
              "reference": "Practitioner/359f46ce-421f-4bf4-acf1-b1c681c0870c"
            },
            "role": {
              "coding": [
                {
                  "system": "https://valueset.x12.org/x217/005010/request/2010EA/NM1/1/01/00/98",
                  "code": "P3"
                }
              ]
            },
            "qualification": {
              "coding": [
                {
                  "system": "https://valueset.x12.org/x217/005010/request/2010EA/PRV/1/03/00/127",
                  "code": "261Q00000X"
                }
              ]
            }
          }
        ],
        "item": [
          {
            "sequence": 1,
            "informationSequence": [
              6
            ],
            "productOrService": {
              "coding": [
                {
                  "system": "http://www.ama-assn.org/go/cpt",
                  "code": "99204"
                }
              ]
            },
            "extension": [
              {
                "url": "http://hl7.org/fhir/us/davinci-pas/StructureDefinition/extension-requestedService",
                "valueReference": {
                  "reference": "ServiceRequest/5b3eebbb-f839-4aa3-af66-1f237fa8690a"
                }
              }
            ]
          }
        ],
        "diagnosis": [
          {
            "sequence": 1,
            "diagnosisCodeableConcept": {
              "coding": [
                {
                  "system": "http://hl7.org/fhir/sid/icd-10-cm",
                  "code": "S83.241D"
                }
              ]
            }
          },
          {
            "sequence": 2,
            "diagnosisCodeableConcept": {
              "coding": [
                {
                  "system": "http://hl7.org/fhir/sid/icd-10-cm",
                  "code": "S86.912D"
                }
              ]
            }
          },
          {
            "sequence": 3,
            "diagnosisCodeableConcept": {
              "coding": [
                {
                  "system": "http://hl7.org/fhir/sid/icd-10-cm",
                  "code": "M23.201"
                }
              ]
            }
          }
        ],
        "created": "2025-01-24T12:02:13.985Z",
        "provider": {
          "reference": "Organization/ad151930-1ccd-429f-b412-7e218e80bf32"
        },
        "priority": {
          "coding": [
            {
              "code": "normal",
              "system": "http://terminology.hl7.org/CodeSystem/processpriority"
            }
          ]
        },
        "insurance": [
          {
            "coverage": {
              "reference": "Coverage/d5d8af8e-1669-4b5c-9293-8d00b084b998"
            },
            "sequence": 1,
            "focal": true
          }
        ],
        "identifier": [
          {
            "system": "https://worksite.redox.com/electronic_submission/provider_summary_of_data",
            "value": "P1"
          }
        ],
        "insurer": {
          "reference": "Organization/e9df1ec5-c358-4ed7-9401-a962327ae1ba"
        },
        "patient": {
          "reference": "Patient/11ba90ce-8192-40f1-aa18-d3c75c306013"
        },
        "related": [
          {
            "reference": {
              "value": "2028079",
              "system": "https://worksite.redox.com/electronic_submission/provider_communication_id"
            },
            "relationship": {
              "coding": [
                {
                  "code": "associated",
                  "system": "http://terminology.hl7.org/CodeSystem/ex-relatedclaimrelationship"
                }
              ]
            }
          }
        ],
        "extension": [
          {
            "valueCodeableConcept": {
              "coding": [
                {
                  "code": "E",
                  "system": "https://valueset.x12.org/x217/005010/request/2000E/UM/1/06/00/1338"
                }
              ]
            },
            "url": "http://hl7.org/fhir/us/davinci-pas/StructureDefinition/extension-levelOfServiceCode"
          },
          {
            "valueString": "3856_153489_20250124040210135",
            "url": "https://valueset.x12.org/x217/005010/request/header/BHT/1/03/00/127"
          }
        ],
        "type": {
          "coding": [
            {
              "system": "http://terminology.hl7.org/CodeSystem/claim-type",
              "code": "professional"
            }
          ]
        },
        "use": "preauthorization",
        "status": "active",
        "id": "e95745e2-1e43-4b18-aef8-22f243a9494d",
        "resourceType": "Claim"
      },
      "fullUrl": "https://fhir.redoxengine.com/fhir-sandbox/Claim/e95745e2-1e43-4b18-aef8-22f243a9494d"
    },
    {
      "resource": {
        "gender": "male",
        "birthDate": "1992-03-14",
        "name": [
          {
            "suffix": [],
            "family": "Harper",
            "given": [
              "Elliot"
            ]
          }
        ],
        "identifier": [
          {
            "value": "06881206",
            "system": "https://worksite.redox.com/electronic_submission/redox_claim_number"
          },
          {
            "value": "0",
            "system": "https://worksite.redox.com/electronic_submission/redox_rfa_type_written_confirmation"
          }
        ],
        "meta": {
          "profile": [
            "https://fhir.redoxengine.com/StructureDefinition/redox-pa-patient"
          ]
        },
        "resourceType": "Patient",
        "id": "11ba90ce-8192-40f1-aa18-d3c75c306013"
      },
      "fullUrl": "https://fhir.redoxengine.com/fhir-sandbox/Patient/11ba90ce-8192-40f1-aa18-d3c75c306013"
    },
    {
      "resource": {
        "address": [
          {
            "postalCode": "92103",
            "state": "CA",
            "city": "San Diego",
            "line": [
              "4527 Oakwood Avenue"
            ]
          }
        ],
        "name": [
          {
            "suffix": [],
            "family": "Bennett",
            "given": [
              "Olivia"
            ]
          }
        ],
        "identifier": [
          {
            "system": "http://hl7.org/fhir/sid/us-npi",
            "value": "1740567893"
          },
          {
            "type": {
              "coding": [
                {
                  "code": "1J"
                }
              ]
            },
            "value": "CA Health System"
          }
        ],
        "meta": {
          "profile": [
            "https://fhir.redoxengine.com/StructureDefinition/redox-practitioner"
          ]
        },
        "resourceType": "Practitioner",
        "id": "359f46ce-421f-4bf4-acf1-b1c681c0870c"
      },
      "fullUrl": "https://fhir.redoxengine.com/fhir-sandbox/Practitioner/359f46ce-421f-4bf4-acf1-b1c681c0870c"
    },
    {
      "resource": {
        "contact": [
          {
            "purpose": {
              "coding": [
                {
                  "system": "http://terminology.hl7.org/CodeSystem/contactentity-type",
                  "code": "BILL"
                }
              ]
            },
            "name": {
              "text": ""
            },
            "telecom": []
          },
          {
            "purpose": {
              "coding": [
                {
                  "system": "http://terminology.hl7.org/CodeSystem/contactentity-type",
                  "code": "ADMIN"
                }
              ]
            },
            "name": {
              "text": ""
            },
            "telecom": []
          }
        ],
        "address": [
          {
            "line": [
              "4527 Oakwood Avenue"
            ],
            "city": "San Diego",
            "state": "CA",
            "postalCode": "92103"
          }
        ],
        "type": [
          {
            "coding": [
              {
                "code": "FA",
                "system": "https://valueset.x12.org/x217/005010/response/2010B/NM1/1/01/00/98"
              }
            ]
          }
        ],
        "identifier": [
          {
            "value": "1740567893",
            "system": "http://hl7.org/fhir/sid/us-npi"
          }
        ],
        "name": "CA Health System",
        "active": true,
        "meta": {
          "profile": [
            "https://fhir.redoxengine.com/StructureDefinition/redox-pa-organization-requestor"
          ]
        },
        "resourceType": "Organization",
        "id": "ad151930-1ccd-429f-b412-7e218e80bf32"
      },
      "fullUrl": "https://fhir.redoxengine.com/fhir-sandbox/Organization/ad151930-1ccd-429f-b412-7e218e80bf32"
    },
    {
      "resource": {
        "subscriber": {
          "reference": "RelatedPerson/69530c14-c68a-4d21-918a-dd516143e9aa"
        },
        "payor": [
          {
            "reference": "Organization/e9df1ec5-c358-4ed7-9401-a962327ae1ba"
          }
        ],
        "beneficiary": {
          "reference": "Patient/11ba90ce-8192-40f1-aa18-d3c75c306013"
        },
        "status": "active",
        "meta": {
          "profile": [
            "https://fhir.redoxengine.com/StructureDefinition/redox-pa-coverage"
          ]
        },
        "resourceType": "Coverage",
        "id": "d5d8af8e-1669-4b5c-9293-8d00b084b998"
      },
      "fullUrl": "https://fhir.redoxengine.com/fhir-sandbox/Coverage/d5d8af8e-1669-4b5c-9293-8d00b084b998"
    },
    {
      "resource": {
        "name": "Payer Company 1",
        "type": [
          {
            "coding": [
              {
                "code": "X3",
                "system": "https://valueset.x12.org/x217/005010/request/2010A/NM1/1/01/00/98"
              }
            ]
          }
        ],
        "identifier": [
          {
            "value": "Pre Auth Payer Id",
            "system": "urn:oid:2.16.840.1.113883.4.7"
          }
        ],
        "active": true,
        "meta": {
          "profile": [
            "https://fhir.redoxengine.com/StructureDefinition/redox-pa-organization-insurer"
          ]
        },
        "resourceType": "Organization",
        "id": "e9df1ec5-c358-4ed7-9401-a962327ae1ba"
      },
      "fullUrl": "https://fhir.redoxengine.com/fhir-sandbox/Organization/e9df1ec5-c358-4ed7-9401-a962327ae1ba"
    },
    {
      "resource": {
        "name": [
          {
            "given": [
              "Avenal State Prison"
            ]
          }
        ],
        "relationship": [
          {
            "coding": [
              {
                "code": "E",
                "system": "http://terminology.hl7.org/CodeSystem/v2-0131"
              }
            ]
          }
        ],
        "patient": {
          "reference": "Patient/11ba90ce-8192-40f1-aa18-d3c75c306013"
        },
        "meta": {
          "profile": [
            "https://fhir.redoxengine.com/StructureDefinition/redox-relatedperson"
          ]
        },
        "resourceType": "RelatedPerson",
        "id": "69530c14-c68a-4d21-918a-dd516143e9aa"
      },
      "fullUrl": "https://fhir.redoxengine.com/fhir-sandbox/RelatedPerson/69530c14-c68a-4d21-918a-dd516143e9aa"
    },
    {
      "resource": {
        "code": {
          "coding": [
            {
              "system": "http://www.cms.gov/Medicare/Coding/HCPCSReleaseCodeSets",
              "code": "99204"
            }
          ]
        },
        "quantityQuantity": {
          "system": "http://unitsofmeasure.org",
          "code": "11"
        },
        "status": "active",
        "requester": {
          "reference": "Practitioner/359f46ce-421f-4bf4-acf1-b1c681c0870c"
        },
        "subject": {
          "reference": "Patient/11ba90ce-8192-40f1-aa18-d3c75c306013"
        },
        "intent": "order",
        "meta": {
          "profile": [
            "https://fhir.redoxengine.com/StructureDefinition/redox-pa-service-request"
          ]
        },
        "resourceType": "ServiceRequest",
        "id": "5b3eebbb-f839-4aa3-af66-1f237fa8690a"
      },
      "fullUrl": "https://fhir.redoxengine.com/fhir-sandbox/ServiceRequest/5b3eebbb-f839-4aa3-af66-1f237fa8690a"
    }
  ],
  "meta": {
    "profile": [
      "https://fhir.redoxengine.com/StructureDefinition/redox-pa-claim-request-bundle"
    ]
  },
  "id": "002028080",
  "timestamp": "2025-01-24T12:02:13.989Z",
  "type": "collection",
  "resourceType": "Bundle"
}